{
  "ca": {
    "cnbc": 3,
    "study": 6,
    "science": 13,
    "immunity": 4,
    "rna": 5,
    "vaccine": 298,
    "rt": 1,
    "time": 16,
    "covid": 55,
    "business": 1,
    "vaccination": 10,
    "military": 2,
    "suggests": 1,
    "nationwide": 1,
    "mandate": 5,
    "https": 72,
    "schools": 2,
    "clinics": 2,
    "kids": 16,
    "week": 6,
    "via": 2,
    "current": 5,
    "vaccines": 32,
    "omicron": 23,
    "variant": 31,
    "ceo": 1,
    "news": 3,
    "vaccinated": 38,
    "sick": 5,
    "canadians": 11,
    "losing": 3,
    "patience": 1,
    "unvaccinated": 15,
    "report": 4,
    "pushing": 10,
    "prevent": 8,
    "exercise": 4,
    "healthy": 6,
    "serious": 4,
    "shot": 11,
    "trial": 7,
    "anti": 8,
    "own": 4,
    "help": 5,
    "stop": 23,
    "amp": 22,
    "receive": 2,
    "visit": 1,
    "age": 4,
    "consent": 4,
    "approval": 3,
    "doing": 6,
    "canada": 34,
    "passports": 9,
    "hard": 4,
    "people": 67,
    "reality": 2,
    "test": 11,
    "results": 5,
    "proof": 4,
    "travel": 14,
    "exemption": 2,
    "video": 2,
    "heart": 5,
    "minister": 3,
    "ontario": 6,
    "government": 8,
    "third": 2,
    "dose": 8,
    "concerns": 2,
    "children": 12,
    "received": 9,
    "thank": 3,
    "helping": 3,
    "protect": 9,
    "community": 2,
    "days": 2,
    "public": 5,
    "health": 11,
    "aged": 2,
    "agree": 4,
    "national": 1,
    "restrictions": 7,
    "booster": 5,
    "justintrudeau": 114,
    "moderna": 5,
    "dr": 6,
    "mutations": 5,
    "idiot": 3,
    "covaxin": 17,
    "safest": 5,
    "world": 14,
    "severe": 6,
    "death": 9,
    "million": 5,
    "doses": 7,
    "myocarditis": 3,
    "parents": 2,
    "money": 6,
    "push": 4,
    "thinking": 1,
    "near": 1,
    "future": 2,
    "actually": 5,
    "term": 4,
    "nor": 1,
    "safe": 10,
    "ruralsasknews": 6,
    "mrna": 16,
    "flu": 4,
    "virus": 22,
    "variants": 17,
    "understand": 3,
    "fordnation": 10,
    "left": 1,
    "care": 11,
    "protected": 3,
    "able": 5,
    "country": 5,
    "shut": 2,
    "month": 2,
    "mandatory": 7,
    "quarantine": 2,
    "try": 6,
    "adverse": 4,
    "govcanhealth": 5,
    "cause": 3,
    "attacks": 3,
    "lives": 12,
    "ahead": 3,
    "due": 11,
    "survival": 1,
    "rate": 6,
    "jkenney": 5,
    "workers": 3,
    "mandates": 15,
    "explain": 3,
    "inequality": 2,
    "wake": 5,
    "call": 1,
    "south": 3,
    "president": 1,
    "africa": 2,
    "seriously": 5,
    "fuck": 1,
    "wrong": 4,
    "fucking": 3,
    "called": 6,
    "god": 1,
    "coronavirus": 3,
    "celliottability": 4,
    "epdevilla": 5,
    "risk": 13,
    "blood": 6,
    "suggest": 1,
    "months": 9,
    "ago": 2,
    "effects": 11,
    "spread": 15,
    "individuals": 4,
    "continue": 2,
    "plan": 4,
    "start": 4,
    "power": 4,
    "politics": 1,
    "vaxxed": 14,
    "feel": 4,
    "else": 3,
    "resistant": 2,
    "brought": 7,
    "globally": 3,
    "drug": 5,
    "countries": 7,
    "media": 1,
    "twitter": 1,
    "maybe": 5,
    "completely": 2,
    "im": 2,
    "fine": 4,
    "gotten": 1,
    "doesnt": 5,
    "stay": 2,
    "home": 3,
    "weeks": 1,
    "normal": 5,
    "lied": 4,
    "oh": 1,
    "efficacy": 8,
    "control": 5,
    "probably": 4,
    "christmas": 3,
    "comes": 3,
    "symptoms": 5,
    "getting": 15,
    "rates": 3,
    "increase": 1,
    "injured": 3,
    "lol": 6,
    "pretty": 2,
    "testing": 3,
    "vaxx": 3,
    "head": 2,
    "market": 1,
    "little": 2,
    "data": 4,
    "unless": 1,
    "instead": 3,
    "chance": 5,
    "stopping": 5,
    "approved": 7,
    "coming": 4,
    "waiting": 3,
    "kyliespeak": 5,
    "dangerous": 5,
    "boost": 1,
    "spreading": 4,
    "look": 5,
    "vax": 8,
    "pharma": 4,
    "wearing": 2,
    "masks": 3,
    "worse": 6,
    "bans": 1,
    "bad": 6,
    "idea": 3,
    "pfizer": 9,
    "trust": 2,
    "looking": 2,
    "telling": 4,
    "wait": 7,
    "boosters": 5,
    "lockdowns": 2,
    "hear": 1,
    "proven": 5,
    "real": 6,
    "safety": 6,
    "issues": 1,
    "effective": 11,
    "potus": 2,
    "fda": 2,
    "cnn": 1,
    "vaxxers": 4,
    "live": 3,
    "truly": 2,
    "believe": 7,
    "yourself": 2,
    "living": 1,
    "job": 5,
    "families": 2,
    "unconstitutional": 1,
    "scientific": 3,
    "code": 3,
    "willing": 1,
    "change": 2,
    "lmao": 2,
    "kill": 5,
    "clinic": 1,
    "sorry": 3,
    "boris": 1,
    "johnson": 1,
    "uk": 1,
    "period": 3,
    "am": 3,
    "saying": 2,
    "based": 4,
    "name": 4,
    "worry": 3,
    "day": 3,
    "read": 5,
    "billion": 5,
    "child": 4,
    "yes": 6,
    "guy": 3,
    "choice": 8,
    "save": 2,
    "life": 6,
    "emergency": 3,
    "population": 5,
    "eligible": 1,
    "shots": 5,
    "gene": 3,
    "actual": 3,
    "transmission": 8,
    "trying": 4,
    "double": 4,
    "seen": 6,
    "borisjohnson": 2,
    "please": 8,
    "dna": 2,
    "experimental": 9,
    "jab": 9,
    "killed": 4,
    "funny": 2,
    "mild": 2,
    "cold": 1,
    "rules": 1,
    "pass": 6,
    "infection": 5,
    "surely": 3,
    "remember": 3,
    "vaccinate": 3,
    "ones": 4,
    "system": 3,
    "free": 7,
    "available": 6,
    "refuse": 3,
    "hospitals": 2,
    "doctors": 5,
    "patients": 4,
    "hope": 1,
    "hesitancy": 3,
    "giving": 5,
    "loss": 3,
    "taking": 3,
    "wear": 4,
    "mask": 4,
    "social": 4,
    "wish": 2,
    "site": 2,
    "huge": 1,
    "lot": 4,
    "perfect": 3,
    "sent": 1,
    "school": 3,
    "reason": 3,
    "including": 3,
    "woman": 4,
    "evidence": 6,
    "short": 1,
    "deaths": 5,
    "offer": 1,
    "tell": 5,
    "disease": 1,
    "paper": 2,
    "requirements": 1,
    "mandating": 4,
    "clinical": 4,
    "trials": 4,
    "text": 2,
    "thousands": 4,
    "times": 2,
    "details": 2,
    "measures": 2,
    "students": 1,
    "staff": 3,
    "regardless": 1,
    "status": 2,
    "traditional": 2,
    "saved": 3,
    "single": 2,
    "rest": 3,
    "causing": 4,
    "natural": 2,
    "leaders": 2,
    "lead": 1,
    "past": 1,
    "following": 1,
    "forcing": 2,
    "narrative": 3,
    "passport": 6,
    "allowed": 2,
    "means": 3,
    "nov": 5,
    "board": 3,
    "share": 1,
    "jobs": 1,
    "blame": 1,
    "failed": 5,
    "pandemic": 4,
    "immune": 3,
    "fake": 3,
    "vaccinations": 1,
    "illness": 3,
    "pregnant": 3,
    "tested": 1,
    "question": 2,
    "quickly": 1,
    "december": 1,
    "provide": 3,
    "allow": 2,
    "events": 1,
    "contracting": 1,
    "viral": 4,
    "claim": 3,
    "protects": 4,
    "rights": 1,
    "lockdown": 1,
    "cbcalerts": 22,
    "cbcnews": 71,
    "lie": 3,
    "response": 2,
    "nationalpost": 21,
    "etc": 2,
    "person": 8,
    "low": 2,
    "gt": 1,
    "sign": 1,
    "lt": 1,
    "bet": 3,
    "die": 2,
    "court": 1,
    "cbc": 8,
    "cdc": 3,
    "effect": 1,
    "worth": 2,
    "tells": 2,
    "using": 2,
    "word": 1,
    "listen": 2,
    "died": 2,
    "body": 1,
    "medical": 7,
    "creating": 1,
    "makes": 4,
    "ok": 3,
    "picardonhealth": 5,
    "globeandmail": 22,
    "daily": 3,
    "employees": 1,
    "simply": 2,
    "protection": 3,
    "fauci": 2,
    "lying": 1,
    "research": 3,
    "article": 4,
    "reported": 4,
    "guys": 2,
    "stock": 1,
    "happen": 1,
    "watch": 2,
    "murcut": 5,
    "decisions": 2,
    "receiving": 1,
    "misinformation": 1,
    "patent": 1,
    "soon": 1,
    "governments": 1,
    "companies": 3,
    "omnicron": 2,
    "sense": 5,
    "freedom": 3,
    "love": 1,
    "divide": 4,
    "conquer": 4,
    "common": 1,
    "doctor": 1,
    "fear": 2,
    "white": 1,
    "forced": 1,
    "force": 1,
    "global": 1,
    "equity": 1,
    "catch": 3,
    "matter": 1,
    "develop": 1,
    "inequity": 1,
    "told": 1,
    "found": 1,
    "sell": 1,
    "advice": 3,
    "refusing": 1,
    "ip": 1,
    "issue": 1,
    "sa": 3,
    "book": 1,
    "information": 1,
    "supply": 2,
    "peoples": 1,
    "history": 1
  },
  "non-ca": {
    "life": 6,
    "accept": 5,
    "vaccine": 247,
    "service": 1,
    "mandatory": 2,
    "choice": 3,
    "try": 3,
    "pay": 3,
    "money": 6,
    "receiving": 2,
    "fauci": 3,
    "https": 239,
    "market": 1,
    "dec": 2,
    "offer": 2,
    "pfizer": 7,
    "covid": 78,
    "learn": 4,
    "health": 35,
    "third": 2,
    "dose": 12,
    "people": 24,
    "aged": 2,
    "immune": 2,
    "system": 3,
    "variants": 7,
    "clinic": 5,
    "doses": 19,
    "children": 6,
    "fda": 2,
    "kids": 4,
    "potus": 5,
    "borisjohnson": 4,
    "justintrudeau": 11,
    "access": 5,
    "biontech": 2,
    "worth": 1,
    "york": 5,
    "mandates": 19,
    "wear": 2,
    "masks": 3,
    "proof": 4,
    "vaccination": 10,
    "events": 2,
    "etc": 3,
    "government": 14,
    "mandate": 63,
    "via": 16,
    "found": 2,
    "county": 4,
    "vaccines": 17,
    "available": 5,
    "thank": 2,
    "refuse": 5,
    "cnbc": 4,
    "africa": 20,
    "due": 4,
    "issues": 1,
    "trust": 2,
    "coronavirus": 8,
    "vaccinations": 3,
    "world": 9,
    "white": 9,
    "house": 10,
    "employees": 5,
    "europe": 5,
    "million": 5,
    "low": 10,
    "countries": 21,
    "president": 5,
    "vaccinated": 18,
    "allowed": 2,
    "guard": 5,
    "status": 6,
    "politics": 2,
    "amp": 20,
    "centre": 6,
    "instead": 2,
    "booster": 15,
    "spread": 3,
    "omicron": 25,
    "peoples": 4,
    "protect": 2,
    "research": 5,
    "suggests": 2,
    "minister": 3,
    "protected": 1,
    "india": 5,
    "drug": 6,
    "approval": 3,
    "stock": 1,
    "country": 4,
    "demand": 2,
    "shot": 6,
    "emergence": 4,
    "boosters": 1,
    "schools": 4,
    "updates": 3,
    "rates": 6,
    "marcus": 3,
    "lamb": 4,
    "head": 2,
    "christian": 3,
    "network": 5,
    "dies": 2,
    "getting": 9,
    "national": 4,
    "refusing": 3,
    "lose": 2,
    "inequity": 4,
    "shots": 2,
    "add": 4,
    "pandemic": 6,
    "age": 2,
    "name": 1,
    "safe": 9,
    "walk": 1,
    "called": 7,
    "god": 3,
    "olds": 5,
    "eu": 6,
    "rollout": 5,
    "brought": 3,
    "authority": 3,
    "requirement": 4,
    "died": 2,
    "tomorrow": 2,
    "fear": 1,
    "unvaccinated": 5,
    "am": 2,
    "students": 4,
    "families": 1,
    "visit": 3,
    "weeks": 2,
    "read": 4,
    "gt": 8,
    "hesitancy": 3,
    "fight": 4,
    "times": 1,
    "israel": 4,
    "effective": 3,
    "variant": 18,
    "current": 5,
    "public": 9,
    "anti": 10,
    "sent": 4,
    "parents": 3,
    "officials": 4,
    "govt": 2,
    "coming": 4,
    "negative": 3,
    "test": 4,
    "regardless": 3,
    "funny": 1,
    "cnn": 5,
    "workers": 35,
    "received": 4,
    "exemption": 1,
    "lockdowns": 2,
    "happen": 1,
    "measures": 3,
    "immunity": 2,
    "decisions": 3,
    "plan": 4,
    "nor": 1,
    "lockdown": 3,
    "biden": 26,
    "day": 2,
    "home": 2,
    "quarantine": 3,
    "americans": 8,
    "protection": 1,
    "virus": 6,
    "following": 2,
    "killed": 2,
    "own": 2,
    "trump": 5,
    "block": 4,
    "administration": 8,
    "care": 23,
    "republicans": 5,
    "shutdown": 2,
    "report": 3,
    "trying": 2,
    "guy": 3,
    "fucking": 3,
    "jim": 5,
    "completely": 2,
    "judge": 22,
    "civil": 5,
    "risk": 5,
    "governments": 3,
    "emergency": 2,
    "lt": 7,
    "narrative": 4,
    "china": 6,
    "federal": 32,
    "blocks": 11,
    "nationwide": 4,
    "fox": 5,
    "news": 15,
    "little": 4,
    "vax": 4,
    "blocked": 4,
    "unconstitutional": 6,
    "decision": 3,
    "america": 2,
    "social": 1,
    "digital": 5,
    "passports": 8,
    "video": 2,
    "experimental": 1,
    "heart": 1,
    "survival": 1,
    "rate": 3,
    "shut": 3,
    "thinking": 1,
    "allow": 1,
    "rt": 2,
    "time": 6,
    "creating": 2,
    "resistant": 3,
    "wednesday": 2,
    "december": 3,
    "mask": 6,
    "simply": 1,
    "uk": 11,
    "short": 2,
    "actually": 2,
    "doctor": 3,
    "death": 2,
    "stop": 10,
    "population": 2,
    "joebiden": 4,
    "pharma": 3,
    "requirements": 6,
    "love": 1,
    "living": 2,
    "normal": 1,
    "data": 1,
    "global": 7,
    "response": 2,
    "sign": 2,
    "petition": 3,
    "change": 2,
    "fine": 3,
    "warns": 5,
    "study": 2,
    "district": 3,
    "missouri": 8,
    "hospitals": 2,
    "nursing": 1,
    "vaccinate": 2,
    "support": 5,
    "real": 2,
    "covaxin": 3,
    "book": 2,
    "johnson": 4,
    "markets": 3,
    "reason": 1,
    "businesses": 2,
    "pass": 5,
    "ready": 1,
    "stay": 3,
    "shit": 2,
    "billion": 6,
    "eligible": 2,
    "free": 3,
    "near": 2,
    "code": 2,
    "omnicron": 1,
    "prevent": 3,
    "dont": 2,
    "sick": 2,
    "text": 2,
    "nhs": 3,
    "jabs": 5,
    "cdc": 2,
    "information": 2,
    "blame": 1,
    "lot": 2,
    "pushing": 1,
    "huge": 2,
    "lie": 2,
    "passport": 3,
    "gatewaypundit": 1,
    "question": 2,
    "healthcare": 8,
    "soon": 2,
    "mandating": 1,
    "court": 7,
    "halts": 5,
    "lead": 1,
    "ip": 2,
    "rights": 3,
    "massive": 1,
    "forcing": 1,
    "power": 2,
    "days": 4,
    "ago": 1,
    "injunction": 4,
    "hospital": 1,
    "staff": 2,
    "loss": 1,
    "globally": 2,
    "equity": 3,
    "gotten": 1,
    "single": 1,
    "african": 9,
    "mild": 1,
    "telling": 3,
    "nov": 2,
    "leaders": 2,
    "increase": 2,
    "live": 3,
    "bans": 3,
    "loved": 1,
    "ones": 2,
    "wait": 3,
    "perfect": 1,
    "medical": 4,
    "traditional": 3,
    "action": 4,
    "transmission": 2,
    "tells": 3,
    "offered": 4,
    "according": 3,
    "injured": 2,
    "control": 2,
    "looking": 2,
    "breaking": 4,
    "sorry": 1,
    "continue": 2,
    "boost": 1,
    "month": 2,
    "start": 1,
    "based": 2,
    "threat": 2,
    "unless": 1,
    "testing": 1,
    "moderna": 1,
    "class": 3,
    "week": 1,
    "vaxxers": 1,
    "please": 5,
    "rules": 5,
    "card": 2,
    "canada": 3,
    "word": 4,
    "deaths": 5,
    "advice": 1,
    "yes": 2,
    "christmas": 1,
    "holiday": 1,
    "truly": 2,
    "dr": 1,
    "means": 1,
    "travel": 4,
    "lying": 3,
    "worse": 3,
    "doing": 3,
    "failed": 2,
    "force": 2,
    "ok": 2,
    "period": 1,
    "south": 6,
    "including": 4,
    "provide": 2,
    "rest": 2,
    "look": 2,
    "media": 2,
    "freedom": 2,
    "omicronvariant": 3,
    "patent": 2,
    "waiver": 5,
    "saying": 2,
    "reality": 2,
    "companies": 4,
    "flu": 2,
    "jab": 1,
    "left": 1,
    "taking": 1,
    "develop": 1,
    "watch": 1,
    "call": 2,
    "dangerous": 1,
    "vaxx": 1,
    "yourself": 2,
    "remain": 1,
    "healthy": 1,
    "worst": 1,
    "hear": 1,
    "else": 1,
    "vaxxed": 1,
    "comes": 1,
    "willing": 1,
    "help": 2,
    "infection": 1,
    "oh": 2,
    "push": 3,
    "spreading": 1,
    "proven": 1,
    "issue": 2,
    "supply": 2,
    "chance": 1,
    "contracting": 1,
    "cbcnews": 11,
    "explain": 1,
    "approved": 1,
    "lmao": 1,
    "govcanhealth": 2,
    "fordnation": 1,
    "celliottability": 1,
    "epdevilla": 1,
    "adverse": 1,
    "reported": 1,
    "severe": 1,
    "twitter": 3,
    "attacks": 1,
    "actual": 1,
    "feel": 1,
    "tell": 2,
    "woman": 1,
    "body": 1,
    "globeandmail": 3,
    "symptoms": 1,
    "doctors": 3,
    "cbcalerts": 3,
    "sa": 1,
    "hold": 1,
    "bad": 1,
    "individuals": 1,
    "wrong": 1,
    "patients": 1,
    "mrna": 1,
    "divide": 1,
    "conquer": 1,
    "nationalpost": 5,
    "sell": 1,
    "makes": 1,
    "sense": 1,
    "business": 1,
    "canadians": 1,
    "boris": 2,
    "quickly": 1,
    "using": 1
  },
  "na": {
    "god": 8,
    "vaccine": 439,
    "effect": 5,
    "site": 3,
    "getting": 26,
    "https": 352,
    "covid": 154,
    "variants": 12,
    "world": 14,
    "news": 15,
    "protect": 20,
    "yourself": 4,
    "amp": 23,
    "hospital": 9,
    "booster": 47,
    "jab": 7,
    "book": 9,
    "boosters": 11,
    "months": 20,
    "dose": 22,
    "anti": 16,
    "marcus": 5,
    "lamb": 7,
    "dies": 5,
    "people": 83,
    "catch": 6,
    "virus": 25,
    "develop": 3,
    "term": 4,
    "symptoms": 6,
    "including": 6,
    "vaccinated": 49,
    "protects": 3,
    "spreading": 7,
    "friends": 7,
    "family": 5,
    "information": 3,
    "using": 7,
    "actually": 9,
    "disease": 4,
    "life": 6,
    "death": 7,
    "healthcare": 9,
    "global": 10,
    "health": 17,
    "via": 26,
    "kill": 4,
    "lockdown": 1,
    "vaccination": 9,
    "died": 9,
    "times": 3,
    "look": 6,
    "im": 6,
    "due": 4,
    "third": 3,
    "tomorrow": 4,
    "refusing": 3,
    "hospitals": 2,
    "country": 4,
    "ones": 7,
    "shot": 22,
    "appointment": 8,
    "weeks": 8,
    "please": 7,
    "rollout": 7,
    "passport": 2,
    "vaccinations": 3,
    "wish": 5,
    "visit": 3,
    "events": 4,
    "etc": 3,
    "prevent": 3,
    "deaths": 2,
    "variant": 34,
    "pfizer": 26,
    "ceo": 13,
    "coronavirus": 7,
    "save": 5,
    "emergency": 4,
    "clinic": 6,
    "wednesday": 3,
    "dec": 5,
    "receive": 3,
    "doses": 16,
    "allowed": 2,
    "staff": 5,
    "walk": 6,
    "biontech": 6,
    "severe": 5,
    "omicron": 62,
    "sent": 2,
    "heart": 8,
    "rate": 6,
    "day": 11,
    "proof": 9,
    "immune": 8,
    "call": 6,
    "massive": 5,
    "boost": 5,
    "probably": 3,
    "surely": 3,
    "person": 4,
    "fine": 1,
    "wear": 13,
    "fucking": 3,
    "republicans": 5,
    "head": 8,
    "mandates": 20,
    "reason": 5,
    "effective": 13,
    "kids": 13,
    "study": 6,
    "sense": 3,
    "patience": 5,
    "truly": 4,
    "negative": 4,
    "public": 6,
    "warns": 2,
    "remain": 4,
    "emergence": 1,
    "pandemic": 8,
    "inequity": 3,
    "spread": 10,
    "christian": 4,
    "vaccines": 31,
    "contracting": 5,
    "single": 3,
    "told": 4,
    "tell": 2,
    "mask": 12,
    "daily": 3,
    "advice": 2,
    "stop": 12,
    "listen": 7,
    "free": 12,
    "immunity": 10,
    "christmas": 5,
    "worth": 3,
    "vaxxed": 2,
    "masks": 10,
    "fda": 4,
    "week": 7,
    "olds": 2,
    "protection": 7,
    "mrna": 8,
    "shots": 9,
    "paper": 3,
    "response": 7,
    "viral": 2,
    "suggest": 4,
    "future": 3,
    "nov": 4,
    "seen": 4,
    "holiday": 5,
    "season": 5,
    "loved": 4,
    "tested": 4,
    "sign": 4,
    "petition": 2,
    "flu": 10,
    "december": 5,
    "time": 25,
    "science": 6,
    "supply": 1,
    "found": 3,
    "current": 4,
    "help": 11,
    "data": 13,
    "fight": 3,
    "cause": 4,
    "hesitancy": 2,
    "ok": 5,
    "plan": 4,
    "safe": 10,
    "passports": 6,
    "test": 3,
    "results": 7,
    "unvaccinated": 11,
    "wearing": 4,
    "understand": 4,
    "taking": 9,
    "community": 5,
    "centre": 1,
    "aged": 2,
    "claim": 2,
    "issue": 2,
    "federal": 10,
    "judge": 8,
    "mandate": 25,
    "injunction": 3,
    "research": 4,
    "suggests": 2,
    "living": 2,
    "low": 2,
    "countries": 6,
    "gotten": 3,
    "according": 7,
    "network": 1,
    "shit": 5,
    "fuck": 4,
    "available": 6,
    "nhs": 3,
    "risk": 7,
    "ago": 2,
    "giving": 3,
    "remember": 6,
    "ahead": 5,
    "learn": 4,
    "hold": 5,
    "nationwide": 6,
    "continue": 5,
    "ready": 4,
    "quickly": 4,
    "post": 6,
    "pass": 2,
    "lives": 5,
    "survival": 4,
    "vax": 6,
    "mild": 3,
    "received": 4,
    "population": 7,
    "govt": 3,
    "authority": 2,
    "million": 3,
    "dna": 3,
    "moderna": 18,
    "social": 4,
    "approval": 2,
    "decision": 5,
    "decisions": 2,
    "sick": 5,
    "protected": 4,
    "bad": 3,
    "lied": 1,
    "clinical": 3,
    "wrong": 5,
    "days": 7,
    "following": 6,
    "court": 2,
    "efficacy": 3,
    "updates": 3,
    "jobs": 4,
    "report": 2,
    "home": 5,
    "share": 4,
    "healthy": 2,
    "believe": 6,
    "hope": 4,
    "waiting": 3,
    "idiot": 2,
    "care": 10,
    "body": 9,
    "choice": 4,
    "politics": 2,
    "agree": 4,
    "threat": 3,
    "stay": 7,
    "school": 8,
    "reality": 4,
    "market": 3,
    "effects": 15,
    "class": 2,
    "markets": 3,
    "nor": 4,
    "adverse": 6,
    "myocarditis": 2,
    "fox": 3,
    "read": 5,
    "cold": 6,
    "feel": 11,
    "forced": 6,
    "job": 4,
    "military": 5,
    "centres": 5,
    "rules": 6,
    "evidence": 4,
    "infection": 5,
    "transmission": 4,
    "support": 3,
    "matter": 6,
    "trying": 7,
    "sell": 3,
    "willing": 3,
    "trials": 2,
    "increase": 3,
    "attacks": 3,
    "gatewaypundit": 4,
    "uk": 3,
    "fear": 8,
    "restrictions": 2,
    "push": 4,
    "simply": 2,
    "force": 4,
    "government": 9,
    "shutdown": 3,
    "makes": 3,
    "history": 4,
    "refuse": 3,
    "block": 1,
    "workers": 12,
    "huge": 2,
    "short": 4,
    "lose": 4,
    "saying": 5,
    "causing": 2,
    "trial": 3,
    "happen": 3,
    "natural": 3,
    "hey": 7,
    "media": 5,
    "love": 3,
    "dont": 4,
    "die": 3,
    "saved": 2,
    "breaking": 2,
    "experimental": 7,
    "drug": 3,
    "administration": 2,
    "oh": 2,
    "wait": 3,
    "control": 6,
    "measures": 2,
    "blocked": 2,
    "forcing": 3,
    "consent": 1,
    "guard": 2,
    "exemption": 2,
    "pay": 2,
    "am": 4,
    "child": 1,
    "lmao": 2,
    "money": 4,
    "sorry": 1,
    "else": 8,
    "funny": 2,
    "south": 1,
    "pretty": 3,
    "omicronvariant": 5,
    "fauci": 6,
    "blocks": 2,
    "america": 3,
    "system": 7,
    "jabs": 7,
    "cdc": 5,
    "thousands": 2,
    "shut": 2,
    "unless": 3,
    "guys": 3,
    "biden": 1,
    "president": 1,
    "real": 5,
    "code": 1,
    "status": 2,
    "americans": 2,
    "ip": 2,
    "little": 3,
    "access": 2,
    "approved": 3,
    "guy": 1,
    "pushing": 3,
    "rest": 4,
    "perfect": 1,
    "killed": 1,
    "left": 3,
    "children": 8,
    "safety": 1,
    "means": 5,
    "double": 3,
    "watch": 2,
    "wake": 1,
    "doing": 5,
    "issues": 4,
    "own": 2,
    "reported": 1,
    "past": 4,
    "blame": 3,
    "requirements": 1,
    "testing": 3,
    "eligible": 4,
    "lot": 5,
    "lead": 4,
    "illness": 3,
    "medical": 7,
    "house": 4,
    "thinking": 4,
    "details": 3,
    "billion": 2,
    "clinics": 6,
    "worse": 4,
    "boris": 2,
    "johnson": 5,
    "offered": 2,
    "add": 2,
    "europe": 1,
    "yes": 3,
    "businesses": 4,
    "freedom": 6,
    "misinformation": 5,
    "maybe": 2,
    "instead": 2,
    "allow": 3,
    "dangerous": 1,
    "board": 2,
    "concerns": 6,
    "rights": 2,
    "vaxx": 2,
    "pregnant": 2,
    "lying": 2,
    "rt": 2,
    "inequality": 3,
    "serious": 1,
    "completely": 2,
    "requirement": 1,
    "service": 4,
    "safest": 1,
    "eu": 3,
    "thank": 3,
    "borisjohnson": 1,
    "losing": 2,
    "failed": 2,
    "hard": 3,
    "exercise": 1,
    "rates": 1,
    "tells": 3,
    "officials": 2,
    "offer": 2,
    "vaxxers": 1,
    "digital": 2,
    "based": 1,
    "patients": 6,
    "card": 5,
    "idea": 3,
    "fake": 3,
    "parents": 5,
    "video": 3,
    "israel": 1,
    "hear": 3,
    "vaccinate": 7,
    "stock": 4,
    "question": 5,
    "coming": 1,
    "families": 2,
    "explain": 2,
    "demand": 4,
    "worst": 4,
    "telling": 3,
    "common": 4,
    "power": 2,
    "gene": 2,
    "chance": 5,
    "age": 3,
    "provide": 1,
    "creating": 2,
    "trust": 3,
    "able": 1,
    "nursing": 4,
    "mandatory": 5,
    "business": 5,
    "companies": 1,
    "injured": 2,
    "doctors": 2,
    "loss": 1,
    "soon": 2,
    "doctor": 1,
    "article": 2,
    "change": 1,
    "receiving": 3,
    "looking": 2,
    "start": 1,
    "omnicron": 2,
    "blood": 3,
    "called": 3,
    "mutations": 1,
    "resistant": 2,
    "normal": 1,
    "lockdowns": 2,
    "try": 2,
    "woman": 1,
    "scientific": 2,
    "covaxin": 1,
    "stopping": 2,
    "cnbc": 1,
    "students": 2,
    "district": 2,
    "near": 2,
    "leaders": 1,
    "helping": 2,
    "cnn": 1,
    "twitter": 1,
    "lt": 3,
    "gt": 2,
    "worry": 2,
    "comes": 2,
    "individuals": 1,
    "governments": 1,
    "schools": 1,
    "travel": 1,
    "bans": 1,
    "employees": 1,
    "word": 3,
    "county": 2,
    "sa": 1,
    "quarantine": 1,
    "china": 1,
    "text": 1,
    "bet": 2,
    "live": 3,
    "joebiden": 2,
    "white": 1,
    "month": 1,
    "action": 2,
    "period": 2,
    "pharma": 2,
    "regardless": 1,
    "equity": 1,
    "patent": 2,
    "narrative": 1,
    "actual": 1,
    "justintrudeau": 1
  }
}